%wavelength			
650	0.00032	0.00031301	2.63E-03
652	0.00034883	0.00030159	2.57E-03
654	0.00037767	0.00029561	2.51E-03
656	0.00040036	0.00029098	2.46E-03
658	0.00042068	0.00028464	2.41E-03
660	0.00043723	0.00027786	2.37E-03
662	0.00044904	0.00028517	2.34E-03
664	0.00045953	0.00029665	2.31E-03
666	0.00046341	0.00030805	2.30E-03
668	0.00046729	0.00031943	2.29E-03
670	0.00047162	0.00031388	2.29E-03
672	0.000476	0.00030245	2.29E-03
674	0.00048123	0.00028287	2.31E-03
676	0.00048702	0.00026023	2.32E-03
678	0.00049263	0.00024029	2.34E-03
680	0.0004979	0.00022144	2.36E-03
682	0.00050335	0.00020482	2.38E-03
684	0.00051179	0.00018918	2.40E-03
686	0.00052023	0.00017642	2.42E-03
688	0.00053635	0.00016499	2.43E-03
690	0.00055465	0.00016118	2.43E-03
692	0.00057365	0.00016118	2.43E-03
694	0.00059334	0.0001521	2.42E-03
696	0.00061459	0.00013815	2.41E-03
698	0.0006413	0.00012741	2.38E-03
700	0.00066801	0.0001185	2.35E-03
702	0.00070141	0.00011513	2.31E-03
704	0.0007352	0.00011513	2.27E-03
706	0.00077553	0.00010821	2.22E-03
708	0.00081911	9.68E-05	2.17E-03
710	0.00087178	9.82E-05	2.11E-03
712	0.00093872	0.00010841	2.06E-03
714	0.0010084	0.00012579	2.00E-03
716	0.0011003	0.00014844	1.94E-03
718	0.0011921	0.0001714	1.88E-03
720	0.0012777	0.0001946	1.83E-03
722	0.0013621	0.00022403	1.78E-03
724	0.0014746	0.00025865	1.72E-03
726	0.0016096	0.00029934	1.67E-03
728	0.0017669	0.00034539	1.62E-03
730	0.0019821	0.00037378	1.56E-03
732	0.0021974	0.00038556	1.51E-03
734	0.0023893	0.00039162	1.46E-03
736	0.0025813	0.00039196	1.41E-03
738	0.0026869	0.0004148	1.35E-03
740	0.0027594	0.00046155	1.30E-03
742	0.0028082	0.00051868	1.25E-03
744	0.0028272	0.00058755	1.20E-03
746	0.0028436	0.00065571	1.15E-03
748	0.002847	0.00072304	1.10E-03
750	0.0028503	0.0007764	1.06E-03
752	0.0028611	0.00081195	1.01E-03
754	0.0028728	0.00085196	9.66E-04
756	0.0028735	0.00089801	9.24E-04
758	0.0028672	0.00092844	8.84E-04
760	0.0028629	0.00093636	8.46E-04
762	0.0028626	0.00090243	8.08E-04
764	0.0028615	0.00080415	7.73E-04
766	0.0028469	0.00069078	7.41E-04
768	0.0028323	0.00055263	7.10E-04
770	0.0028123	0.00042512	6.81E-04
772	0.0027907	0.00031627	6.52E-04
774	0.0027704	0.00022549	6.26E-04
776	0.0027515	0.00016848	6.02E-04
778	0.0027275	0.00012287	5.78E-04
780	0.0026862	0.00010003	5.57E-04
782	0.0026449	7.83E-05	5.35E-04
784	0.0025978	5.90E-05	5.16E-04
786	0.0025503	4.56E-05	4.97E-04
788	0.0025067	4.58E-05	4.79E-04
790	0.002465	4.61E-05	4.62E-04
792	0.0024226	4.61E-05	4.47E-04
794	0.0023792	5.07E-05	4.31E-04
796	0.002336	6.76E-05	4.17E-04
798	0.0022939	8.46E-05	4.04E-04
800	0.0022518	0.00010193	3.91E-04
802	0.0022289	0.00012179	3.79E-04
804	0.0022099	0.00014963	3.67E-04
806	0.0021984	0.0001767	3.56E-04
808	0.002193	0.00020119	3.46E-04
810	0.0021932	0.00022637	3.36E-04
812	0.0022081	0.00025407	3.27E-04
814	0.002223	0.00028075	3.17E-04
816	0.0022627	0.00030324	3.09E-04
818	0.0023025	0.00032724	3.01E-04
820	0.0023675	0.00035807	2.93E-04
822	0.0024422	0.00038631	2.85E-04
824	0.0025603	0.00040154	2.78E-04
826	0.0027326	0.00041486	2.71E-04
828	0.0029212	0.00041746	2.65E-04
830	0.0031921	0.00041662	2.59E-04
832	0.0034629	0.00039393	2.53E-04
834	0.0036191	0.00037228	2.47E-04
836	0.0037608	0.00035808	2.41E-04
838	0.0038604	0.00034312	2.36E-04
840	0.003933	0.00032181	2.31E-04
842	0.0040004	0.00030126	2.26E-04
844	0.0040571	0.0002883	2.22E-04
846	0.0041131	0.00027631	2.18E-04
848	0.0041565	0.00027631	2.14E-04
850	0.0041999	0.00027631	2.10E-04
852	0.0042426	0.00027631	2.06E-04
854	0.0042851	0.00027682	2.02E-04
856	0.0043369	0.00028795	1.99E-04
858	0.0043981	0.00030015	1.95E-04
860	0.0044566	0.00034598	1.92E-04
862	0.004506	0.00039234	1.88E-04
864	0.0045555	0.00047248	1.85E-04
866	0.0046257	0.00055263	1.82E-04
868	0.0046971	0.00064507	1.79E-04
870	0.0047756	0.00073752	1.76E-04
872	0.0048577	0.00088744	1.73E-04
874	0.0049495	0.0010382	1.70E-04
876	0.0050566	0.0012784	1.68E-04
878	0.0051644	0.0015213	1.65E-04
880	0.0052783	0.0018641	1.62E-04
882	0.0053922	0.0022118	1.60E-04
884	0.005497	0.0026797	1.57E-04
886	0.0056	0.0031556	1.54E-04
888	0.0057182	0.0036758	1.51E-04
890	0.0058485	0.0041997	1.49E-04
892	0.0059722	0.0044651	1.50E-04
894	0.0060786	0.0047047	1.50E-04
896	0.006185	0.0047409	1.51E-04
898	0.0062922	0.0047531	1.49E-04
900	0.0063994	0.0048954	1.47E-04
902	0.0065231	0.0050558	1.44E-04
904	0.0066532	0.0054783	1.41E-04
906	0.0067955	0.0059422	1.39E-04
908	0.0069531	0.0066533	1.37E-04
910	0.0071212	0.0074085	1.35E-04
912	0.0073413	0.0081308	1.33E-04
914	0.0075615	0.0088464	1.32E-04
916	0.0078922	0.0094176	1.30E-04
918	0.0082367	0.0099567	1.29E-04
920	0.0087093	0.010469	1.28E-04
922	0.0092633	0.010974	1.26E-04
924	0.0098433	0.011345	1.25E-04
926	0.010475	0.011681	1.24E-04
928	0.01113	0.011631	1.22E-04
930	0.012188	0.011466	1.21E-04
932	0.013246	0.010754	1.19E-04
934	0.014419	0.0098676	1.18E-04
936	0.015625	0.0086855	1.17E-04
938	0.017071	0.0074003	1.16E-04
940	0.018757	0.0062007	1.14E-04
942	0.02044	0.0050332	1.13E-04
944	0.022112	0.0041383	1.11E-04
946	0.023784	0.0033536	1.10E-04
948	0.026747	0.002785	1.09E-04
950	0.029785	0.0023107	1.07E-04
952	0.032953	0.0019588	1.06E-04
954	0.036186	0.001664	1.05E-04
956	0.039088	0.0014508	1.04E-04
958	0.041468	0.0012784	1.03E-04
960	0.04374	0.001147	1.02E-04
962	0.045152	0.0010374	1.02E-04
964	0.046564	0.00095481	1.01E-04
966	0.047179	0.00088752	9.98E-05
968	0.047635	0.00083798	9.91E-05
970	0.048005	0.00079924	9.83E-05
972	0.048306	0.00077074	9.76E-05
974	0.048529	0.00074887	9.66E-05
976	0.048549	0.00073944	9.59E-05
978	0.048569	0.00073861	9.51E-05
980	0.048205	0.00074986	9.47E-05
982	0.04784	0.00077001	9.37E-05
984	0.047304	0.00082366	9.31E-05
986	0.046702	0.0009036	9.24E-05
			
			
			
			
			
			
			
